*** SPECTRAL RESPONSE DATA ***
ATSR Flight Model FPA 11um channel (AuSpace measuremets).
W
 255
  0.00937479
  9.778300     0.00000
  9.787675     0.00000
  9.797050     0.00000
  9.806424     0.00000
  9.815799     0.00000
  9.825173     0.00000
  9.834548     0.00000
  9.843923     0.00000
  9.853297     0.00000
  9.862672     0.00000
  9.872046     0.00000
  9.881421     0.00100
  9.890796     0.00000
  9.900170     0.00000
  9.909545     0.00000
  9.918920     0.00000
  9.928294     0.00000
  9.937669     0.00000
  9.947043     0.00100
  9.956418     0.00000
  9.965793     0.00000
  9.975167     0.00100
  9.984542     0.00100
  9.993917     0.00100
 10.003291     0.00100
 10.012666     0.00000
 10.022040     0.00000
 10.031415     0.00100
 10.040790     0.00100
 10.050164     0.00100
 10.059539     0.00100
 10.068913     0.00200
 10.078288     0.00100
 10.087663     0.00100
 10.097037     0.00200
 10.106412     0.00200
 10.115787     0.00200
 10.125161     0.00299
 10.134536     0.00400
 10.143910     0.00300
 10.153285     0.00400
 10.162660     0.00500
 10.172034     0.00600
 10.181409     0.00700
 10.190784     0.00800
 10.200158     0.00800
 10.209533     0.01001
 10.218907     0.01200
 10.228282     0.01300
 10.237657     0.01499
 10.247031     0.01801
 10.256406     0.02000
 10.265780     0.02299
 10.275155     0.02698
 10.284530     0.03101
 10.293904     0.03500
 10.303279     0.04099
 10.312654     0.04697
 10.322028     0.05402
 10.331403     0.06100
 10.340777     0.06898
 10.350152     0.07795
 10.359527     0.08803
 10.368901     0.10000
 10.378276     0.11197
 10.387650     0.12592
 10.397025     0.14204
 10.406400     0.15700
 10.415774     0.17594
 10.425149     0.19887
 10.434524     0.22106
 10.443898     0.24400
 10.453273     0.26993
 10.462647     0.29485
 10.472022     0.32307
 10.481397     0.35199
 10.490771     0.38690
 10.500146     0.41286
 10.509521     0.44308
 10.518895     0.48398
 10.528270     0.51192
 10.537644     0.53883
 10.547019     0.56705
 10.556394     0.59398
 10.565768     0.62990
 10.575143     0.65484
 10.584517     0.68405
 10.593892     0.70298
 10.603267     0.72889
 10.612641     0.75689
 10.622016     0.76802
 10.631391     0.78798
 10.640765     0.80195
 10.650140     0.81495
 10.659514     0.82202
 10.668889     0.84298
 10.678264     0.84701
 10.687638     0.84008
 10.697013     0.83301
 10.706388     0.85198
 10.715762     0.86394
 10.725137     0.87699
 10.734511     0.86899
 10.743886     0.86900
 10.753261     0.87098
 10.762635     0.87797
 10.772010     0.87900
 10.781384     0.88199
 10.790759     0.88700
 10.800134     0.88498
 10.809508     0.89000
 10.818883     0.88399
 10.828258     0.89801
 10.837632     0.88300
 10.847007     0.90101
 10.856381     0.89700
 10.865756     0.90300
 10.875131     0.89699
 10.884505     0.90500
 10.893880     0.89898
 10.903255     0.92386
 10.912629     0.94293
 10.922004     0.94700
 10.931378     0.95201
 10.940753     0.94401
 10.950128     0.95288
 10.959502     0.96300
 10.968877     0.95401
 10.978251     0.95499
 10.987626     0.95691
 10.997001     0.96700
 11.006375     0.95495
 11.015750     0.99984
 11.025125     0.99711
 11.034499     0.99200
 11.043874     0.99199
 11.053248     0.99407
 11.062623     0.97112
 11.071998     0.97200
 11.081372     0.97498
 11.090747     0.97713
 11.100121     0.94701
 11.109496     0.97100
 11.118871     0.94807
 11.128245     0.94102
 11.137620     0.93599
 11.146995     0.93401
 11.156369     0.89906
 11.165744     0.90497
 11.175118     0.89511
 11.184493     0.88102
 11.193868     0.84312
 11.203242     0.82795
 11.212617     0.84492
 11.221992     0.82904
 11.231366     0.78408
 11.240741     0.77418
 11.250115     0.72826
 11.259490     0.72800
 11.268865     0.71313
 11.278239     0.67617
 11.287614     0.65919
 11.296988     0.62904
 11.306363     0.60410
 11.315738     0.56832
 11.325112     0.52029
 11.334487     0.50403
 11.343862     0.46816
 11.353236     0.43815
 11.362611     0.41723
 11.371985     0.39104
 11.381360     0.36814
 11.390735     0.33218
 11.400109     0.31521
 11.409484     0.28604
 11.418859     0.26907
 11.428233     0.25209
 11.437608     0.24311
 11.446982     0.22604
 11.456357     0.20807
 11.465732     0.19213
 11.475106     0.17317
 11.484481     0.16102
 11.493855     0.15306
 11.503230     0.13712
 11.512605     0.12510
 11.521979     0.11503
 11.531354     0.10205
 11.540729     0.09604
 11.550103     0.08810
 11.559478     0.07802
 11.568852     0.07102
 11.578227     0.06803
 11.587602     0.06208
 11.596976     0.05501
 11.606351     0.05202
 11.615726     0.04604
 11.625100     0.04205
 11.634475     0.03701
 11.643849     0.03601
 11.653224     0.03105
 11.662599     0.02603
 11.671973     0.02600
 11.681348     0.02502
 11.690722     0.02003
 11.700097     0.01801
 11.709472     0.01701
 11.718846     0.01401
 11.728221     0.01499
 11.737596     0.01403
 11.746970     0.01101
 11.756345     0.00900
 11.765719     0.01099
 11.775094     0.00904
 11.784469     0.00600
 11.793843     0.00699
 11.803218     0.00801
 11.812593     0.00503
 11.821967     0.00499
 11.831342     0.00700
 11.840716     0.00504
 11.850091     0.00199
 11.859466     0.00499
 11.868840     0.00302
 11.878215     0.00099
 11.887589     0.00398
 11.896964     0.00400
 11.906339     0.00500
 11.915713     0.00402
 11.925088     0.00104
 11.934463    -0.00001
 11.943837     0.00398
 11.953212     0.00303
 11.962586     0.00100
 11.971961     0.00299
 11.981336     0.00302
 11.990710    -0.00099
 12.000085     0.00195
 12.009459     0.00301
 12.018834     0.00001
 12.028209     0.00098
 12.037583     0.00200
 12.046958     0.00101
 12.056333     0.00099
 12.065707     0.00300
 12.075082     0.00004
 12.084456    -0.00101
 12.093831     0.00198
 12.103206     0.00302
 12.112580    -0.00097
 12.121955    -0.00002
 12.131330     0.00299
 12.140704     0.00104
 12.150079    -0.00101
 12.159453     0.00297
