*** SPECTRAL RESPONSE DATA ***
ATSR Flight Model FPA 12um channel (AuSpace measuremets).
W
 255
  0.00937479
 10.978300     0.00000
 10.987675     0.00000
 10.997049     0.00000
 11.006424     0.00000
 11.015799     0.00000
 11.025173     0.00000
 11.034548     0.00000
 11.043922     0.00000
 11.053297     0.00000
 11.062672     0.00000
 11.072046     0.00000
 11.081421     0.00000
 11.090796     0.00000
 11.100170     0.00100
 11.109545     0.00100
 11.118919     0.00100
 11.128294     0.00100
 11.137669     0.00100
 11.147043     0.00200
 11.156418     0.00200
 11.165792     0.00200
 11.175167     0.00300
 11.184542     0.00400
 11.193916     0.00400
 11.203291     0.00500
 11.212666     0.00600
 11.222040     0.00600
 11.231415     0.00700
 11.240789     0.00800
 11.250164     0.00899
 11.259539     0.01101
 11.268913     0.01300
 11.278288     0.01500
 11.287663     0.01699
 11.297037     0.02001
 11.306412     0.02300
 11.315786     0.02600
 11.325161     0.02998
 11.334536     0.03502
 11.343910     0.03900
 11.353285     0.04399
 11.362659     0.05197
 11.372034     0.05803
 11.381409     0.06601
 11.390783     0.07299
 11.400158     0.08197
 11.409533     0.08803
 11.418907     0.10001
 11.428282     0.10998
 11.437656     0.12393
 11.447031     0.13704
 11.456406     0.15001
 11.465780     0.16397
 11.475155     0.17792
 11.484529     0.20008
 11.493904     0.22601
 11.503279     0.24096
 11.512653     0.26487
 11.522028     0.28604
 11.531403     0.29801
 11.540777     0.32992
 11.550152     0.35292
 11.559526     0.36806
 11.568901     0.39900
 11.578276     0.42991
 11.587650     0.46486
 11.597025     0.48607
 11.606400     0.51400
 11.615774     0.53090
 11.625149     0.57979
 11.634523     0.60005
 11.643898     0.62699
 11.653273     0.65291
 11.662647     0.68582
 11.672022     0.72413
 11.681396     0.77100
 11.690771     0.73901
 11.700146     0.77678
 11.709520     0.79102
 11.718895     0.81498
 11.728270     0.86185
 11.737644     0.88802
 11.747019     0.87100
 11.756393     0.88599
 11.765768     0.88891
 11.775143     0.92792
 11.784517     0.91400
 11.793892     0.93599
 11.803267     0.93105
 11.812641     0.92988
 11.822016     0.96607
 11.831390     0.99200
 11.840765     0.97505
 11.850140     0.97301
 11.859514     0.96599
 11.868889     0.96899
 11.878263     0.97796
 11.887638     0.98304
 11.897013     0.97701
 11.906387     0.99699
 11.915762     0.98703
 11.925137     0.99194
 11.934511     0.99901
 11.943886     1.00002
 11.953260     0.98104
 11.962635     0.98298
 11.972010     0.96696
 11.981384     0.93197
 11.990759     0.97697
 12.000134     0.93428
 12.009508     0.93702
 12.018883     0.96596
 12.028257     0.96709
 12.037632     0.94308
 12.047007     0.94600
 12.056381     0.93701
 12.065756     0.94298
 12.075130     0.94200
 12.084505     0.93899
 12.093880     0.91604
 12.103254     0.90803
 12.112629     0.91082
 12.122004     0.94401
 12.131378     0.93008
 12.140753     0.90105
 12.150127     0.90598
 12.159502     0.90700
 12.168877     0.93000
 12.178251     0.91002
 12.187626     0.92499
 12.197001     0.89300
 12.206375     0.85999
 12.215750     0.89285
 12.225124     0.90095
 12.234499     0.91100
 12.243874     0.89308
 12.253248     0.87101
 12.262623     0.88490
 12.271997     0.87901
 12.281372     0.84810
 12.290747     0.83489
 12.300121     0.86787
 12.309496     0.85002
 12.318871     0.81806
 12.328245     0.82381
 12.337620     0.86282
 12.346994     0.84803
 12.356369     0.79019
 12.365744     0.75210
 12.375118     0.74512
 12.384493     0.72401
 12.393867     0.72498
 12.403242     0.72604
 12.412617     0.71604
 12.421991     0.70204
 12.431366     0.64112
 12.440741     0.64005
 12.450115     0.61024
 12.459490     0.59801
 12.468864     0.57613
 12.478239     0.54409
 12.487614     0.54308
 12.496988     0.51306
 12.506363     0.46714
 12.515738     0.44611
 12.525112     0.42620
 12.534487     0.40603
 12.543861     0.38314
 12.553236     0.34618
 12.562611     0.33993
 12.571985     0.34402
 12.581360     0.31913
 12.590734     0.29316
 12.600109     0.27801
 12.609484     0.28201
 12.618858     0.25813
 12.628233     0.23514
 12.637608     0.22203
 12.646982     0.22202
 12.656357     0.20309
 12.665731     0.18714
 12.675106     0.17100
 12.684481     0.18000
 12.693855     0.16110
 12.703230     0.14807
 12.712605     0.14003
 12.721979     0.14001
 12.731354     0.13203
 12.740728     0.12806
 12.750103     0.11318
 12.759478     0.10101
 12.768852     0.10202
 12.778227     0.09305
 12.787601     0.09105
 12.796976     0.08302
 12.806351     0.08199
 12.815725     0.08304
 12.825100     0.07407
 12.834475     0.07002
 12.843849     0.06104
 12.853224     0.05802
 12.862598     0.05403
 12.871973     0.05300
 12.881348     0.05201
 12.890722     0.05003
 12.900097     0.04605
 12.909472     0.04102
 12.918846     0.03502
 12.928221     0.03500
 12.937595     0.03303
 12.946970     0.03100
 12.956345     0.03101
 12.965719     0.02802
 12.975094     0.02703
 12.984468     0.02301
 12.993843     0.02199
 13.003218     0.02301
 13.012592     0.02003
 13.021967     0.01901
 13.031342     0.01700
 13.040716     0.01800
 13.050091     0.01604
 13.059465     0.01400
 13.068840     0.01500
 13.078215     0.01301
 13.087589     0.01301
 13.096964     0.01101
 13.106339     0.01000
 13.115713     0.01101
 13.125088     0.00902
 13.134462     0.00900
 13.143837     0.00801
 13.153212     0.00700
 13.162586     0.00701
 13.171961     0.00600
 13.181335     0.00600
 13.190710     0.00601
 13.200085     0.00501
 13.209459     0.00500
 13.218834     0.00400
 13.228209     0.00500
 13.237583     0.00401
 13.246958     0.00400
 13.256332     0.00301
 13.265707     0.00101
 13.275082     0.00197
 13.284456     0.00400
 13.293831     0.00302
 13.303205     0.00101
 13.312580     0.00098
 13.321955     0.00300
 13.331329     0.00201
 13.340704     0.00100
 13.350079     0.00100
 13.359453     0.00001
