 wavelength (um)       Norm. Spec. Resp. Func.
         10.000    -1.1452E-04
         10.020     1.4062E-03
         10.040    -8.3035E-05
         10.060     1.4662E-04
         10.080    -7.4195E-04
         10.100    -4.5309E-04
         10.120     1.7495E-05
         10.140    -7.3192E-05
         10.160    -9.1627E-04
         10.180     3.3302E-04
         10.200     1.2715E-03
         10.220    -4.6959E-04
         10.240    -5.2800E-04
         10.260     6.5059E-04
         10.280     8.5315E-04
         10.300    -3.3930E-04
         10.320    -5.4551E-04
         10.340     4.0582E-05
         10.360    -5.7576E-04
         10.380    -3.4418E-04
         10.400    -4.2912E-04
         10.420    -5.6557E-04
         10.440    -4.4785E-04
         10.460    -3.6003E-04
         10.480     3.0889E-04
         10.500    -4.7313E-04
         10.520     6.4565E-04
         10.540    -3.0622E-04
         10.560    -8.9853E-05
         10.580     1.8055E-04
         10.600    -1.2421E-04
         10.620     3.4574E-05
         10.640    -5.2537E-04
         10.660    -5.1227E-05
         10.680    -2.6106E-04
         10.700    -2.7550E-04
         10.720     6.7156E-04
         10.740     3.9608E-04
         10.760    -1.8018E-05
         10.780     3.6997E-04
         10.800    -1.0211E-04
         10.820    -5.4129E-04
         10.840     1.4597E-04
         10.860     3.9280E-04
         10.880    -4.3178E-04
         10.900    -4.3482E-04
         10.920    -4.1651E-04
         10.940    -6.3337E-04
         10.960    -7.4449E-04
         10.980    -6.5719E-04
         11.000     8.8485E-04
         11.020    -2.5727E-04
         11.040    -3.8594E-04
         11.060    -4.1939E-04
         11.080     8.4157E-04
         11.100     9.5830E-04
         11.120    -4.3155E-04
         11.140     3.2116E-05
         11.160     6.9324E-04
         11.180    -9.0067E-04
         11.200    -1.3745E-03
         11.220     9.8097E-04
         11.240    -5.0045E-04
         11.260    -9.9866E-04
         11.280     1.5824E-03
         11.300    -5.3370E-04
         11.320     5.2752E-04
         11.340     1.6794E-03
         11.360     4.7676E-03
         11.380     1.5484E-02
         11.400     4.1567E-02
         11.420     1.0716E-01
         11.440     2.4147E-01
         11.460     4.5280E-01
         11.480     6.6489E-01
         11.500     7.7704E-01
         11.520     7.8575E-01
         11.540     7.6394E-01
         11.560     7.5941E-01
         11.580     7.7547E-01
         11.600     8.1156E-01
         11.620     8.3524E-01
         11.640     8.6399E-01
         11.660     8.8997E-01
         11.680     9.0689E-01
         11.700     9.1349E-01
         11.720     9.2297E-01
         11.740     9.3063E-01
         11.760     9.3367E-01
         11.780     9.3313E-01
         11.800     9.2994E-01
         11.820     9.3642E-01
         11.840     9.4314E-01
         11.860     9.5337E-01
         11.880     9.6135E-01
         11.900     9.6668E-01
         11.920     9.7869E-01
         11.940     9.9111E-01
         11.960     9.8951E-01
         11.980     9.9930E-01
         12.000     9.9402E-01
         12.020     1.0000E+00
         12.040     9.9276E-01
         12.060     9.9034E-01
         12.080     9.8548E-01
         12.100     9.8231E-01
         12.120     9.8809E-01
         12.140     9.9308E-01
         12.160     9.9009E-01
         12.180     9.9521E-01
         12.200     9.9354E-01
         12.220     9.8721E-01
         12.240     9.9115E-01
         12.260     9.9218E-01
         12.280     9.9239E-01
         12.300     9.8350E-01
         12.320     9.9665E-01
         12.340     9.9523E-01
         12.360     9.7264E-01
         12.380     9.1362E-01
         12.400     8.1647E-01
         12.420     6.5669E-01
         12.440     4.7746E-01
         12.460     3.0314E-01
         12.480     1.7445E-01
         12.500     9.1318E-02
         12.520     4.5598E-02
         12.540     2.4285E-02
         12.560     1.2229E-02
         12.580     6.2423E-03
         12.600     5.2931E-03
         12.620     1.6996E-03
         12.640    -1.4040E-03
         12.660     2.8770E-04
         12.680     3.9818E-04
         12.700    -2.5192E-03
         12.720     4.6615E-03
         12.740    -2.2752E-03
         12.760     2.7827E-03
         12.780     1.3057E-03
         12.800    -2.4058E-03
         12.820     2.2642E-03
         12.840     6.6083E-03
         12.860    -2.9129E-03
         12.880    -1.8809E-03
         12.900    -2.4318E-03
         12.920     4.6711E-03
         12.940     1.1359E-04
         12.960     2.0206E-05
         12.980    -2.2524E-03
         13.000    -1.0971E-03
         13.020    -1.4014E-03
         13.040     2.1136E-04
         13.060    -2.7071E-03
         13.080     1.9261E-03
         13.100    -4.3712E-05
         13.120    -2.7286E-03
         13.140    -2.5245E-03
         13.160     5.4719E-04
         13.180    -2.5223E-03
         13.200    -2.4103E-03
         13.220    -3.3839E-03
         13.240    -1.2361E-04
         13.260     4.1460E-03
         13.280    -7.0271E-04
         13.300    -4.6378E-03
         13.320     1.1819E-02
         13.340     2.8565E-03
         13.360     4.4046E-04
         13.380    -1.3044E-03
         13.400     3.6017E-03
         13.420    -1.3338E-03
         13.440    -2.6946E-03
         13.460     5.2442E-03
         13.480     9.8638E-03
         13.500    -2.7304E-03
         13.520     4.8382E-03
         13.540    -7.6518E-04
         13.560    -6.0350E-03
         13.580    -6.0942E-03
         13.600    -3.8735E-03
         13.620     4.3688E-03
         13.640     7.6120E-04
         13.660     1.7925E-03
         13.680     1.0318E-02
         13.700    -4.5800E-03
         13.720     2.0887E-03
         13.740     2.2823E-03
         13.760    -1.7361E-03
         13.780    -2.2844E-03
         13.800     1.2959E-02
         13.820    -2.9466E-03
         13.840    -9.3400E-04
         13.860     2.0066E-03
         13.880     8.6757E-03
         13.900     3.9186E-03
         13.920    -3.3995E-03
         13.940    -1.2355E-03
         13.960    -1.7398E-03
         13.980    -3.0649E-04
         14.000     2.8810E-03
