     Wavelength (um)      Normalized RSF
            1.490000            0.000000
            1.491000            0.000000
            1.492000            0.000000
            1.493000            0.000000
            1.494000            0.000000
            1.495000            0.000100
            1.496000            0.000000
            1.497000            0.000000
            1.498000           -0.000100
            1.499000            0.000000
            1.500000           -0.000100
            1.501000            0.000000
            1.502000            0.000100
            1.503000            0.000000
            1.504000            0.000100
            1.505000            0.000100
            1.506000            0.000000
            1.507000           -0.000100
            1.508000            0.000000
            1.509000            0.000100
            1.510000            0.000100
            1.511000           -0.000100
            1.512000            0.000000
            1.513000            0.000100
            1.514000            0.000000
            1.515000            0.000000
            1.516000            0.000000
            1.517000            0.000100
            1.518000            0.000000
            1.519000            0.000000
            1.520000            0.000100
            1.521000            0.000200
            1.522000            0.000100
            1.523000           -0.000100
            1.524000            0.000000
            1.525000            0.000100
            1.526000            0.000000
            1.527000            0.000100
            1.528000            0.000200
            1.529000            0.000000
            1.530000            0.000100
            1.531000            0.000100
            1.532000            0.000000
            1.533000            0.000100
            1.534000            0.000000
            1.535000            0.000100
            1.536000            0.000000
            1.537000            0.000100
            1.538000            0.000100
            1.539000            0.000000
            1.540000            0.000200
            1.541000            0.000200
            1.542000            0.000200
            1.543000            0.000200
            1.544000            0.000200
            1.545000            0.000200
            1.546000            0.000200
            1.547000            0.000100
            1.548000            0.000200
            1.549000            0.000200
            1.550000            0.000300
            1.551000            0.000400
            1.552000            0.000400
            1.553000            0.000600
            1.554000            0.000700
            1.555000            0.000800
            1.556000            0.001100
            1.557000            0.001300
            1.558000            0.001600
            1.559000            0.002200
            1.560000            0.002500
            1.561000            0.003300
            1.562000            0.004000
            1.563000            0.005500
            1.564000            0.006800
            1.565000            0.008500
            1.566000            0.011400
            1.567000            0.014600
            1.568000            0.018200
            1.569000            0.024300
            1.570000            0.031100
            1.571000            0.041400
            1.572000            0.053900
            1.573000            0.069900
            1.574000            0.094900
            1.575000            0.123600
            1.576000            0.167900
            1.577000            0.218600
            1.578000            0.290700
            1.579000            0.371700
            1.580000            0.456200
            1.581000            0.567900
            1.582000            0.662500
            1.583000            0.757500
            1.584000            0.831500
            1.585000            0.874700
            1.586000            0.923500
            1.587000            0.927700
            1.588000            0.946000
            1.589000            0.939800
            1.590000            0.932900
            1.591000            0.942500
            1.592000            0.926400
            1.593000            0.944300
            1.594000            0.941500
            1.595000            0.939900
            1.596000            0.948800
            1.597000            0.945500
            1.598000            0.952900
            1.599000            0.942500
            1.600000            0.960500
            1.601000            0.959400
            1.602000            0.957900
            1.603000            0.953400
            1.604000            0.954500
            1.605000            0.967400
            1.606000            0.942300
            1.607000            0.953000
            1.608000            0.936800
            1.609000            0.944200
            1.610000            0.937500
            1.611000            0.941200
            1.612000            0.936500
            1.613000            0.924800
            1.614000            0.932800
            1.615000            0.926700
            1.616000            0.936000
            1.617000            0.930300
            1.618000            0.952900
            1.619000            0.952600
            1.620000            0.951000
            1.621000            0.980800
            1.622000            0.985400
            1.623000            1.000000
            1.624000            0.991300
            1.625000            0.998900
            1.626000            0.957600
            1.627000            0.943000
            1.628000            0.876200
            1.629000            0.807400
            1.630000            0.726100
            1.631000            0.639600
            1.632000            0.540600
            1.633000            0.441200
            1.634000            0.370300
            1.635000            0.292700
            1.636000            0.233300
            1.637000            0.181400
            1.638000            0.147500
            1.639000            0.112900
            1.640000            0.089700
            1.641000            0.070300
            1.642000            0.057900
            1.643000            0.045600
            1.644000            0.036100
            1.645000            0.029600
            1.646000            0.023600
            1.647000            0.019700
            1.648000            0.016100
            1.649000            0.013600
            1.650000            0.011100
            1.651000            0.009400
            1.652000            0.007400
            1.653000            0.006500
            1.654000            0.005800
            1.655000            0.005100
            1.656000            0.003900
            1.657000            0.003200
            1.658000            0.003000
            1.659000            0.002600
            1.660000            0.002100
            1.661000            0.002000
            1.662000            0.001700
            1.663000            0.001600
            1.664000            0.001300
            1.665000            0.001200
            1.666000            0.001200
            1.667000            0.000800
            1.668000            0.000800
            1.669000            0.000900
            1.670000            0.000400
            1.671000            0.000400
            1.672000            0.000600
            1.673000            0.000500
            1.674000            0.000700
            1.675000            0.000500
            1.676000            0.000300
            1.677000            0.000200
            1.678000            0.000300
            1.679000            0.000300
            1.680000            0.000200
            1.681000            0.000200
            1.682000            0.000200
            1.683000            0.000000
            1.684000            0.000100
            1.685000            0.000100
            1.686000            0.000300
            1.687000            0.000100
            1.688000            0.000100
            1.689000            0.000200
            1.690000            0.000300
            1.691000            0.000200
            1.692000           -0.000100
            1.693000            0.000200
            1.694000           -0.000100
            1.695000            0.000200
            1.696000            0.000000
            1.697000            0.000100
            1.698000            0.000100
            1.699000            0.000000
            1.700000            0.000100
            1.701000            0.000200
            1.702000           -0.000100
            1.703000            0.000100
            1.704000            0.000000
            1.705000           -0.000200
            1.706000            0.000200
            1.707000            0.000000
            1.708000            0.000000
            1.709000            0.000000
            1.710000            0.000100
            1.711000           -0.000100
            1.712000           -0.000100
            1.713000            0.000000
            1.714000           -0.000100
            1.715000            0.000200
            1.716000           -0.000100
            1.717000           -0.000100
            1.718000            0.000000
            1.719000           -0.000100
            1.720000           -0.000100
            1.721000           -0.000200
            1.722000            0.000000
            1.723000            0.000000
            1.724000           -0.000100
            1.725000           -0.000100
            1.726000            0.000000
            1.727000           -0.000100
            1.728000           -0.000200
            1.729000            0.000000
            1.730000            0.000000
