# Generic Thermal InfraRed (TIR) channels of IASI.
# Two header rows are: instrument name and number of channels (in this file)
# Columns are: channel number, centre wavelength, thermal flag, solar flag
TIR
147
       1      7.09220  1 0
       2      7.11744  1 0
       3      7.14286  1 0
       4      7.16846  1 0
       5      7.19424  1 0
       6      7.22022  1 0
       7      7.24638  1 0
       8      7.27273  1 0
       9      7.29927  1 0
      10      7.32601  1 0
      11      7.35294  1 0
      12      7.38007  1 0
      13      7.40741  1 0
      14      7.43494  1 0
      15      7.46269  1 0
      16      7.49064  1 0
      17      7.51880  1 0
      18      7.54717  1 0
      19      7.57576  1 0
      20      7.60456  1 0
      21      7.63359  1 0
      22      7.66284  1 0
      23      7.69231  1 0
      24      7.72201  1 0
      25      7.75194  1 0
      26      7.78210  1 0
      27      7.81250  1 0
      28      7.84314  1 0
      29      7.87402  1 0
      30      7.90514  1 0
      31      7.93651  1 0
      32      7.96813  1 0
      33      8.00000  1 0
      34      8.03213  1 0
      35      8.06452  1 0
      36      8.09717  1 0
      37      8.13008  1 0
      38      8.16327  1 0
      39      8.19672  1 0
      40      8.23045  1 0
      41      8.26446  1 0
      42      8.29876  1 0
      43      8.33333  1 0
      44      8.36820  1 0
      45      8.40336  1 0
      46      8.43882  1 0
      47      8.47458  1 0
      48      8.51064  1 0
      49      8.54701  1 0
      50      8.58369  1 0
      51      8.62069  1 0
      52      8.65801  1 0
      53      8.69565  1 0
      54      8.73362  1 0
      55      8.77193  1 0
      56      8.81057  1 0
      57      8.84956  1 0
      58      8.88889  1 0
      59      8.92857  1 0
      60      8.96861  1 0
      61      9.00901  1 0
      62      9.04977  1 0
      63      9.09091  1 0
      64      9.13242  1 0
      65      9.17431  1 0
      66      9.21659  1 0
      67      9.25926  1 0
      68      9.30233  1 0
      69      9.34579  1 0
      70      9.38967  1 0
      71      9.43396  1 0
      72      9.47867  1 0
      73      9.52381  1 0
      74      9.56938  1 0
      75      9.61539  1 0
      76      9.66184  1 0
      77      9.70874  1 0
      78      9.75610  1 0
      79      9.80392  1 0
      80      9.85222  1 0
      81      9.90099  1 0
      82      9.95025  1 0
      83      10.0000  1 0
      84      10.0503  1 0
      85      10.1010  1 0
      86      10.1523  1 0
      87      10.2041  1 0
      88      10.2564  1 0
      89      10.3093  1 0
      90      10.3627  1 0
      91      10.4167  1 0
      92      10.4712  1 0
      93      10.5263  1 0
      94      10.5820  1 0
      95      10.6383  1 0
      96      10.6952  1 0
      97      10.7527  1 0
      98      10.8108  1 0
      99      10.8696  1 0
     100      10.9290  1 0
     101      10.9890  1 0
     102      11.0497  1 0
     103      11.1111  1 0
     104      11.1732  1 0
     105      11.2360  1 0
     106      11.2994  1 0
     107      11.3636  1 0
     108      11.4286  1 0
     109      11.4943  1 0
     110      11.5607  1 0
     111      11.6279  1 0
     112      11.6959  1 0
     113      11.7647  1 0
     114      11.8343  1 0
     115      11.9048  1 0
     116      11.9760  1 0
     117      12.0482  1 0
     118      12.1212  1 0
     119      12.1951  1 0
     120      12.2699  1 0
     121      12.3457  1 0
     122      12.4224  1 0
     123      12.5000  1 0
     124      12.5786  1 0
     125      12.6582  1 0
     126      12.7389  1 0
     127      12.8205  1 0
     128      12.9032  1 0
     129      12.9870  1 0
     130      13.0719  1 0
     131      13.1579  1 0
     132      13.2450  1 0
     133      13.3333  1 0
     134      13.4228  1 0
     135      13.5135  1 0
     136      13.6054  1 0
     137      13.6986  1 0
     138      13.7931  1 0
     139      13.8889  1 0
     140      13.9860  1 0
     141      14.0845  1 0
     142      14.1844  1 0
     143      14.2857  1 0
     144      14.3885  1 0
     145      14.4928  1 0
     146      14.5985  1 0
     147      14.7059  1 0
